Time (sec)	Fluid Temperature (C)	Flowrate (GPM)	"Pressure Drop (large pipe, (""WC)"	"Pressure Drop (small pipe, (""WC))"	Ambient Temperature (C)	Ambient Pressure (kPa)	Flow Setpoint (GPM)	Control Output (%)
1050470.941	20.779431	13.147465	11.623369	0.308896	21.33397	86.151641	13	44.133914
1050472.274	20.869814	13.103838	11.566446	0.273152	21.312865	86.158708	13	44.116608
1050472.532	20.875741	13.092304	11.539187	0.288053	21.330029	86.155007	13	44.119849
1050473.838	20.877593	13.05648	11.491438	0.269985	21.222886	86.159424	13	44.129933
1050475.648	20.787379	13.050059	11.404415	0.25907	21.320773	86.155816	13	44.099288
1050478.024	20.688098	12.987899	11.299473	0.230031	21.305962	86.159006	13	44.156861
1050478.307	20.728478	12.992794	11.297443	0.228411	21.280413	86.156095	13	44.153068
1050480.426	20.782732	12.958437	11.247245	0.217384	21.295224	86.155974	13	44.207919
1050480.712	20.798829	12.956727	11.243464	0.21215	21.295224	86.155974	13	44.213674
1050481.881	20.677152	12.945403	11.217005	0.206693	21.219818	86.159034	13	44.246577
1050483.539	20.690119	12.948035	11.166862	0.217719	21.287211	86.154794	13	44.277404
1050485.086	20.783102	12.95562	11.157391	0.222488	21.259572	86.155268	13	44.286401
1050485.39	20.832908	12.947993	11.152939	0.223978	21.259572	86.155268	13	44.298606
1050487.188	20.80846	12.916779	11.167999	0.239214	21.318684	86.15723	13	44.374637
1050488.656	20.793643	12.959166	11.177247	0.255755	21.261661	86.157034	13	44.367481
1050489.231	20.79196	12.997513	11.173819	0.264453	21.32831	86.156728	13	44.33399
1050490.652	20.752693	13.050537	11.161628	0.278926	21.33807	86.151083	13	44.268761
1050492.458	20.784382	13.076404	11.182313	0.30288	21.442108	86.152934	13	44.208756
1050493.026	20.70935	13.096638	11.176706	0.303029	21.387921	86.153659	13	44.171988
1050494.645	20.80176	13.105229	11.188851	0.311764	21.288824	86.15378	13	44.105108
1050494.926	20.824726	13.110853	11.179174	0.315974	21.343729	86.154431	13	44.089502
1050496.682	20.776369	13.133996	11.19754	0.338158	21.359412	86.145579	13	43.993694
1050498.794	20.812132	13.150701	11.180944	0.360845	21.363988	86.150191	13	43.864313
1050499.478	20.79415	13.127198	11.211603	0.363937	21.339551	86.154738	13	43.856931
1050502.146	20.82951	13.081994	11.207338	0.364663	21.375095	86.152441	13	43.807437
1050503.688	20.865239	13.047084	11.203417	0.364198	21.389297	86.158913	13	43.805472
1050504.356	20.858402	13.04617	11.188963	0.372189	21.267851	86.15365	13	43.794264
1050506.833	20.680389	13.041216	11.173456	0.323257	21.371525	86.156281	13	43.77063
1050507.832	20.797451	12.996952	11.164702	0.33948	21.345978	86.152804	13	43.804896
1050508.906	20.808935	12.960147	11.161917	0.337562	21.357456	86.157072	13	43.849434
1050509.783	20.786709	12.985091	11.140571	0.324896	21.414844	86.157704	13	43.831587
1050511.999	20.827996	12.982979	11.097656	0.292449	21.411749	86.154821	13	43.855525
1050512.291	20.829679	12.991813	11.104818	0.296658	21.312892	86.158913	13	43.848075
1050514.517	20.866149	12.933467	11.056864	0.260858	21.301546	86.15153	13	43.922323
1050515.081	20.846517	12.933308	11.052133	0.259741	21.357456	86.152813	13	43.935163
1050516.491	20.961711	12.95816	11.037315	0.258921	21.307841	86.152757	13	43.938019
1050516.904	20.901877	12.950843	11.041041	0.262274	21.355234	86.155054	13	43.951847
1050518.13	20.85891	12.979215	11.015178	0.239736	21.462603	86.158708	13	43.935567
1050519.984	20.836515	12.906561	10.992509	0.199857	21.500365	86.158829	13	44.041884
1050520.548	20.927063	12.919603	10.987536	0.202036	21.333522	86.148954	13	44.046049
1050522.34	20.883356	12.927625	10.977636	0.215223	21.343148	86.153343	13	44.085433
1050522.612	20.880764	12.927734	10.980812	0.218483	21.371896	86.155277	13	44.091918
1050524.867	20.986324	12.914566	10.975382	0.207549	21.340557	86.154412	13	44.169433
1050525.426	20.828705	12.908673	10.977888	0.216732	21.39411	86.153111	13	44.193201
1050527.024	20.857428	12.957959	10.991392	0.229249	21.347962	86.149754	13	44.172609
1050528.432	20.794424	12.90429	10.99155	0.244746	21.357456	86.157639	13	44.26138
1050530.158	20.853893	12.948119	11.004123	0.27114	21.36412	86.156021	13	44.265664
1050530.599	20.863693	12.965327	11.008454	0.277194	21.36412	86.156021	13	44.254836
1050531.496	20.866857	12.984345	11.03345	0.283676	21.395961	86.160717	13	44.246484
1050533.058	20.902787	13.048115	11.0363	0.305804	21.335003	86.154152	13	44.168718
1050534.815	20.975753	13.097953	11.057507	0.322754	21.350791	86.156932	13	44.077342
1050535.291	20.879081	13.131389	11.073404	0.316309	21.333389	86.154412	13	44.025638
1050537.379	20.962049	13.155763	11.123202	0.359225	21.272797	86.155742	13	43.898537
1050537.662	20.894267	13.14014	11.142359	0.354121	21.341297	86.154728	13	43.899866
1050539.636	20.932789	13.075574	11.190136	0.353301	21.338335	86.152711	13	43.88263
1050540.689	20.968515	12.945688	11.255534	0.361646	21.277611	86.150191	13	44.009737
1050542.167	20.881504	12.865616	11.276628	0.34572	21.409052	86.147002	13	44.138498
1050542.486	20.919994	12.859924	11.283455	0.35129	21.280573	86.1494	13	44.158789
1050544.581	21.015922	12.925881	11.17246	0.331154	21.309825	86.157602	13	44.171285
1050545.5	20.794255	12.926594	11.136566	0.339276	21.321911	86.151948	13	44.195718
1050546.889	20.952789	12.924415	11.080156	0.318526	21.400537	86.150544	13	44.229872
1050547.695	20.866117	12.883913	11.062573	0.324374	21.306492	86.15325	13	44.297588
1050549.729	20.995552	12.924607	11.005371	0.317743	21.267746	86.152887	13	44.326559
1050550.931	20.925381	12.96396	10.994335	0.300551	21.343281	86.153203	13	44.312585
1050551.211	20.846114	12.957473	10.986558	0.298763	21.295147	86.15365	13	44.322836
1050554.472	20.985383	12.899286	10.966386	0.260877	21.362534	86.15046	13	44.463811
1050555.043	20.960938	12.938169	10.960221	0.263317	21.329211	86.154282	13	44.441024
1050556.458	20.978346	12.945688	10.957576	0.261641	21.317363	86.149707	13	44.462114
1050557.991	21.018684	12.94065	10.94978	0.260858	21.406964	86.149391	13	44.494707
1050558.98	20.870731	12.915136	10.938698	0.245938	21.332173	86.152618	13	44.543507
1050559.27	20.905009	12.904541	10.940849	0.247596	21.358832	86.147941	13	44.562751
1050561.253	20.89649	12.928849	10.932178	0.211107	21.360075	86.159982	13	44.598096
1050561.535	20.884637	12.930617	10.914912	0.225095	21.311068	86.15325	13	44.60289
1050563.334	20.849617	12.903275	10.919205	0.22029	21.277373	86.14821	13	44.671248
1050563.619	20.887971	12.896888	10.919531	0.215447	21.277373	86.14821	13	44.687131
1050565.253	20.854803	12.897651	10.931005	0.233384	21.442268	86.147885	13	44.752363
1050567.043	20.851639	12.93547	10.916672	0.247913	21.375493	86.152488	13	44.761109
1050567.317	20.949424	12.939762	10.918702	0.252011	21.324028	86.146648	13	44.76251
1050568.149	20.819042	12.929033	10.923545	0.245529	21.502614	86.147671	13	44.79014
1050569.945	20.965552	12.933065	10.935149	0.259666	21.364148	86.146248	13	44.829318
1050570.338	20.895717	12.949669	10.940802	0.254954	21.340452	86.151939	13	44.820337
1050572.121	20.815337	13.002006	10.970828	0.272034	21.276395	86.152757	13	44.787597
1050572.47	20.864434	13.016934	10.970987	0.280397	21.32059	86.151483	13	44.771529
1050575.763	20.997203	13.096705	11.02966	0.312714	21.49632	86.1457	13	44.61868
1050576.183	20.892754	13.109185	11.042512	0.314614	21.544209	86.149084	13	44.591838
1050577.134	20.88905	13.097953	11.076505	0.322586	21.25677	86.15418	13	44.568134
1050578.84	20.885145	13.097878	11.12337	0.34885	21.332201	86.152116	13	44.507776
1050580.629	21.012017	13.112136	11.165931	0.351904	21.357616	86.148777	13	44.425957
1050581.16	20.926259	13.111029	11.165642	0.354121	21.322442	86.155649	13	44.408106
1050581.873	20.969594	13.127734	11.17625	0.356375	21.345901	86.151725	13	44.362863
1050583.596	21.002928	13.045768	11.193498	0.365297	21.27592	86.147894	13	44.386904
1050585.091	21.051244	13.008032	11.186467	0.370885	21.320961	86.152488	13	44.414624
1050585.435	20.997002	13.022801	11.186709	0.364123	21.386126	86.153157	13	44.398073
1050588.026	20.952726	13.005677	11.124841	0.320593	21.382926	86.154682	13	44.3878
1050588.403	20.88959	12.992803	11.106671	0.321823	21.371819	86.151799	13	44.400644
1050590.481	20.906057	12.99675	11.045166	0.281738	21.417226	86.154236	13	44.405959
1050592.453	20.912555	12.893661	11.013548	0.253724	21.272455	86.149652	13	44.547017
1050594.51	20.950504	12.914968	10.956104	0.229994	21.386866	86.151307	13	44.582745
1050594.91	20.945318	12.891633	10.944202	0.229659	21.357749	86.150637	13	44.61934
1050596.868	20.926058	12.914231	10.891088	0.223028	21.313081	86.151149	13	44.663753
